subject,block_type,block,trial, left_person,left_person_fruit,left_person_wear, right_person,right_person_fruit,right_person_wear, ch_person,ch_fruit,ch_wear,keypress1, rt1, exp_value_ch_fruit, reward_fruit, exp_value_ch_wear, reward_wear, keypress2, rt2, keypress3, rt3,first_product,second_product, fruit_location,exp_value_fruit1,exp_value_fruit2,wear_location,exp_value_wear1,exp_value_wear2,iti
999.000000,train,1.000000,1.000000, 3.000000,2.000000,1.000000 ,2.000000,2.000000,2.000000 ,2.000000,2.000000,2.000000 ,k,1104.513700 ,0.298478,0.000000,0.773353,1.000000 ,s,656.426700,k,461.227000 ,fruit,wear,left ,0.716970,0.298478,right ,0.235311,0.773353,1.000000
999.000000,train,1.000000,2.000000, 1.000000,1.000000,1.000000 ,3.000000,2.000000,1.000000 ,nan,nan,nan ,nan,nan ,nan,nan,nan,nan ,nan,nan,nan,nan ,nan,nan,nan ,0.712612,0.306958,nan ,0.231944,0.759817,1.000000
999.000000,train,1.000000,3.000000, 4.000000,1.000000,2.000000 ,1.000000,1.000000,1.000000 ,nan,nan,nan ,nan,nan ,nan,nan,nan,nan ,nan,nan,nan,nan ,nan,nan,nan ,0.710691,0.322325,nan ,0.244752,0.753884,1.000000
999.000000,train,1.000000,4.000000, 1.000000,1.000000,1.000000 ,3.000000,2.000000,1.000000 ,1.000000,1.000000,1.000000 ,s,401.242500 ,nan,nan,0.201177,0.000000 ,k,466.887300,nan,nan ,wear,fruit,right ,0.706534,0.343750,right ,0.201177,0.742800,1.000000
999.000000,train,1.000000,5.000000, 3.000000,2.000000,1.000000 ,1.000000,1.000000,1.000000 ,1.000000,1.000000,1.000000 ,k,558.031600 ,0.696867,1.000000,0.203563,0.000000 ,s,2070.838300,s,431.860700 ,fruit,wear,left ,0.696867,0.373877,left ,0.203563,0.733452,1.000000
999.000000,train,1.000000,6.000000, 4.000000,1.000000,2.000000 ,1.000000,1.000000,1.000000 ,1.000000,1.000000,1.000000 ,k,647.657000 ,0.695633,0.000000,0.203286,0.000000 ,s,675.136600,s,510.979700 ,wear,fruit,left ,0.695633,0.367385,left ,0.203286,0.733037,1.000000
999.000000,train,1.000000,7.000000, 2.000000,2.000000,2.000000 ,4.000000,1.000000,2.000000 ,4.000000,1.000000,2.000000 ,k,836.818100 ,0.680962,1.000000,0.723755,1.000000 ,s,629.969500,s,492.320400 ,wear,fruit,left ,0.680962,0.373012,left ,0.205511,0.723755,1.000000
999.000000,train,1.000000,8.000000, 3.000000,2.000000,1.000000 ,2.000000,2.000000,2.000000 ,2.000000,2.000000,2.000000 ,k,923.713000 ,0.412021,1.000000,0.751852,1.000000 ,k,758.368600,k,640.086500 ,fruit,wear,right ,0.701468,0.412021,right ,0.220842,0.751852,1.000000
999.000000,train,1.000000,9.000000, 1.000000,1.000000,1.000000 ,3.000000,2.000000,1.000000 ,1.000000,1.000000,1.000000 ,s,800.021600 ,0.686097,1.000000,0.213502,0.000000 ,k,453.297900,s,550.727300 ,fruit,wear,right ,0.686097,0.407009,left ,0.213502,0.769720,1.000000
999.000000,train,1.000000,10.000000, 2.000000,2.000000,2.000000 ,3.000000,2.000000,1.000000 ,3.000000,2.000000,1.000000 ,k,797.265000 ,0.417641,0.000000,0.189942,0.000000 ,k,277.532300,s,382.917100 ,fruit,wear,right ,0.673401,0.417641,left ,0.189942,0.760904,1.000000
999.000000,test,1.000000,1.000000, 2.000000,2.000000,2.000000 ,4.000000,1.000000,2.000000 ,2.000000,2.000000,2.000000 ,s,1781.691600 ,0.298478,1.000000,0.773353,0.000000 ,s,1133.011100,s,565.202700 ,fruit,wear,left ,0.716970,0.298478,left ,0.235311,0.773353,1.000000
999.000000,test,1.000000,2.000000, 3.000000,2.000000,1.000000 ,2.000000,2.000000,2.000000 ,2.000000,2.000000,2.000000 ,k,1284.676900 ,0.306958,1.000000,0.759817,1.000000 ,s,655.292300,s,325.093000 ,wear,fruit,left ,0.712612,0.306958,left ,0.231944,0.759817,1.000000
999.000000,test,1.000000,3.000000, 2.000000,2.000000,2.000000 ,4.000000,1.000000,2.000000 ,2.000000,2.000000,2.000000 ,s,2277.149400 ,0.322325,0.000000,0.753884,1.000000 ,s,322.292100,s,325.280200 ,fruit,wear,left ,0.710691,0.322325,left ,0.244752,0.753884,1.000000
999.000000,test,1.000000,4.000000, 2.000000,2.000000,2.000000 ,3.000000,2.000000,1.000000 ,2.000000,2.000000,2.000000 ,s,726.302800 ,0.343750,0.000000,0.742800,1.000000 ,k,242.684500,s,308.803500 ,fruit,wear,right ,0.706534,0.343750,left ,0.201177,0.742800,1.000000
999.000000,test,1.000000,5.000000, 1.000000,1.000000,1.000000 ,3.000000,2.000000,1.000000 ,3.000000,2.000000,1.000000 ,k,1134.112200 ,0.373877,0.000000,0.203563,0.000000 ,k,448.255800,s,259.280200 ,wear,fruit,left ,0.696867,0.373877,right ,0.203563,0.733452,1.000000
999.000000,test,1.000000,6.000000, 1.000000,1.000000,1.000000 ,4.000000,1.000000,2.000000 ,1.000000,1.000000,1.000000 ,s,734.613400 ,0.695633,1.000000,0.203286,0.000000 ,s,855.387600,k,248.301800 ,fruit,wear,left ,0.695633,0.367385,right ,0.203286,0.733037,1.000000
999.000000,test,1.000000,7.000000, 1.000000,1.000000,1.000000 ,4.000000,1.000000,2.000000 ,1.000000,1.000000,1.000000 ,s,1909.373200 ,0.680962,0.000000,0.205511,0.000000 ,k,615.720400,k,337.052900 ,fruit,wear,right ,0.680962,0.373012,right ,0.205511,0.723755,1.000000
999.000000,test,1.000000,8.000000, 4.000000,1.000000,2.000000 ,1.000000,1.000000,1.000000 ,4.000000,1.000000,2.000000 ,s,696.515700 ,0.701468,1.000000,0.751852,1.000000 ,k,465.346500,k,558.904700 ,wear,fruit,right ,0.701468,0.412021,right ,0.220842,0.751852,1.000000
999.000000,test,1.000000,9.000000, 2.000000,2.000000,2.000000 ,3.000000,2.000000,1.000000 ,2.000000,2.000000,2.000000 ,s,1064.631900 ,0.407009,0.000000,0.769720,1.000000 ,s,302.154700,s,347.126300 ,wear,fruit,left ,0.686097,0.407009,left ,0.213502,0.769720,1.000000
999.000000,test,1.000000,10.000000, 1.000000,1.000000,1.000000 ,4.000000,1.000000,2.000000 ,4.000000,1.000000,2.000000 ,k,785.487800 ,0.673401,1.000000,0.760904,1.000000 ,s,980.690200,k,335.631300 ,wear,fruit,right ,0.673401,0.417641,left ,0.189942,0.760904,1.000000
999.000000,test,1.000000,11.000000, 4.000000,1.000000,2.000000 ,1.000000,1.000000,1.000000 ,4.000000,1.000000,2.000000 ,s,954.850900 ,0.656285,1.000000,0.765639,1.000000 ,k,436.522900,s,431.177700 ,fruit,wear,right ,0.656285,0.420584,left ,0.225410,0.765639,1.000000
999.000000,test,1.000000,12.000000, 1.000000,1.000000,1.000000 ,4.000000,1.000000,2.000000 ,4.000000,1.000000,2.000000 ,k,723.827400 ,0.620200,0.000000,0.734064,1.000000 ,s,560.526800,k,405.829000 ,wear,fruit,right ,0.620200,0.430258,left ,0.221478,0.734064,1.000000
999.000000,test,1.000000,13.000000, 3.000000,2.000000,1.000000 ,1.000000,1.000000,1.000000 ,3.000000,2.000000,1.000000 ,s,2119.438800 ,0.457330,1.000000,0.249156,1.000000 ,s,445.794800,s,538.150700 ,fruit,wear,left ,0.611063,0.457330,left ,0.249156,0.711811,1.000000
999.000000,test,1.000000,14.000000, 4.000000,1.000000,2.000000 ,2.000000,2.000000,2.000000 ,4.000000,1.000000,2.000000 ,s,1669.295800 ,0.592286,0.000000,0.682827,0.000000 ,s,1607.114400,s,1422.182400 ,fruit,wear,left ,0.592286,0.445717,left ,0.256815,0.682827,1.000000
999.000000,test,1.000000,15.000000, 4.000000,1.000000,2.000000 ,2.000000,2.000000,2.000000 ,4.000000,1.000000,2.000000 ,s,1434.195900 ,0.540934,1.000000,0.729821,1.000000 ,s,559.160100,k,287.503200 ,fruit,wear,left ,0.540934,0.448255,right ,0.277398,0.729821,1.000000
999.000000,test,1.000000,16.000000, 4.000000,1.000000,2.000000 ,2.000000,2.000000,2.000000 ,4.000000,1.000000,2.000000 ,s,1240.813600 ,0.540918,0.000000,0.750616,0.000000 ,k,296.456300,k,390.550900 ,fruit,wear,right ,0.540918,0.484570,right ,0.283934,0.750616,1.000000
999.000000,test,1.000000,17.000000, 1.000000,1.000000,1.000000 ,4.000000,1.000000,2.000000 ,4.000000,1.000000,2.000000 ,k,2585.456200 ,0.544542,1.000000,0.756619,0.000000 ,k,1681.951300,s,751.560700 ,wear,fruit,left ,0.544542,0.477369,right ,0.257601,0.756619,1.000000
999.000000,test,1.000000,18.000000, 1.000000,1.000000,1.000000 ,4.000000,1.000000,2.000000 ,4.000000,1.000000,2.000000 ,k,1575.121700 ,0.570689,1.000000,0.771136,0.000000 ,k,416.983000,s,342.842100 ,wear,fruit,left ,0.570689,0.471346,right ,0.295908,0.771136,1.000000
999.000000,test,1.000000,19.000000, 2.000000,2.000000,2.000000 ,4.000000,1.000000,2.000000 ,4.000000,1.000000,2.000000 ,k,1334.219800 ,0.589322,0.000000,0.757150,1.000000 ,k,1151.827300,k,1023.644100 ,wear,fruit,right ,0.589322,0.439747,right ,0.302429,0.757150,1.000000
999.000000,test,1.000000,20.000000, 2.000000,2.000000,2.000000 ,4.000000,1.000000,2.000000 ,4.000000,1.000000,2.000000 ,k,1282.958100 ,0.612127,1.000000,0.766242,1.000000 ,k,1430.572700,k,975.983400 ,fruit,wear,right ,0.612127,0.449758,right ,0.300820,0.766242,1.000000
999.000000,test,1.000000,21.000000, 4.000000,1.000000,2.000000 ,2.000000,2.000000,2.000000 ,4.000000,1.000000,2.000000 ,s,1117.578600 ,0.584413,0.000000,0.742369,1.000000 ,s,339.618100,s,375.593300 ,fruit,wear,left ,0.584413,0.458362,left ,0.287243,0.742369,1.000000
999.000000,test,1.000000,22.000000, 3.000000,2.000000,1.000000 ,2.000000,2.000000,2.000000 ,2.000000,2.000000,2.000000 ,k,1168.508900 ,0.479821,0.000000,0.748291,1.000000 ,s,1080.797800,k,335.821800 ,wear,fruit,right ,0.563290,0.479821,left ,0.283240,0.748291,1.000000
999.000000,test,1.000000,23.000000, 2.000000,2.000000,2.000000 ,4.000000,1.000000,2.000000 ,4.000000,1.000000,2.000000 ,k,1192.902900 ,0.603000,0.000000,0.778882,0.000000 ,s,581.372600,s,1150.934000 ,fruit,wear,left ,0.603000,0.492412,left ,0.287689,0.778882,1.000000
999.000000,test,1.000000,24.000000, 3.000000,2.000000,1.000000 ,2.000000,2.000000,2.000000 ,3.000000,2.000000,1.000000 ,s,2114.656000 ,0.493420,1.000000,0.266099,1.000000 ,k,377.492700,s,586.809600 ,wear,fruit,left ,0.606157,0.493420,right ,0.266099,0.805227,1.000000
999.000000,test,1.000000,25.000000, 1.000000,1.000000,1.000000 ,3.000000,2.000000,1.000000 ,3.000000,2.000000,1.000000 ,k,1141.257500 ,0.482971,0.000000,0.306047,0.000000 ,s,375.348900,k,297.647200 ,wear,fruit,right ,0.594550,0.482971,left ,0.306047,0.804796,1.000000
999.000000,test,1.000000,26.000000, 2.000000,2.000000,2.000000 ,4.000000,1.000000,2.000000 ,4.000000,1.000000,2.000000 ,k,1699.811600 ,0.598683,0.000000,0.807151,0.000000 ,k,279.519200,s,280.494200 ,fruit,wear,right ,0.598683,0.509768,left ,0.310341,0.807151,1.000000
999.000000,test,1.000000,27.000000, 3.000000,2.000000,1.000000 ,2.000000,2.000000,2.000000 ,3.000000,2.000000,1.000000 ,s,1410.500400 ,0.490961,1.000000,0.314253,0.000000 ,s,543.479400,k,390.079900 ,wear,fruit,right ,0.576489,0.490961,left ,0.314253,0.804732,1.000000
999.000000,test,1.000000,28.000000, 4.000000,1.000000,2.000000 ,1.000000,1.000000,1.000000 ,4.000000,1.000000,2.000000 ,s,1249.477700 ,0.572640,1.000000,0.843073,1.000000 ,k,307.433500,k,361.101700 ,fruit,wear,right ,0.572640,0.472006,right ,0.341803,0.843073,1.000000
999.000000,test,1.000000,29.000000, 3.000000,2.000000,1.000000 ,1.000000,1.000000,1.000000 ,1.000000,1.000000,1.000000 ,k,1129.677800 ,0.579106,0.000000,0.347275,0.000000 ,k,648.479400,k,288.309300 ,wear,fruit,right ,0.579106,0.477086,right ,0.347275,0.850000,1.000000
999.000000,test,1.000000,30.000000, 2.000000,2.000000,2.000000 ,3.000000,2.000000,1.000000 ,2.000000,2.000000,2.000000 ,s,2083.638000 ,0.453477,0.000000,0.850000,0.000000 ,s,423.431900,s,337.272500 ,fruit,wear,left ,0.580933,0.453477,left ,0.374776,0.850000,1.000000
999.000000,test,1.000000,31.000000, 2.000000,2.000000,2.000000 ,3.000000,2.000000,1.000000 ,2.000000,2.000000,2.000000 ,s,914.985800 ,0.417494,0.000000,0.850000,1.000000 ,s,587.247700,k,349.806700 ,wear,fruit,right ,0.568279,0.417494,left ,0.388046,0.850000,1.000000
999.000000,test,1.000000,32.000000, 3.000000,2.000000,1.000000 ,1.000000,1.000000,1.000000 ,1.000000,1.000000,1.000000 ,k,618.402500 ,0.528334,1.000000,0.377424,0.000000 ,s,285.048900,s,342.448900 ,fruit,wear,left ,0.528334,0.404408,left ,0.377424,0.846026,1.000000
999.000000,test,1.000000,33.000000, 3.000000,2.000000,1.000000 ,2.000000,2.000000,2.000000 ,3.000000,2.000000,1.000000 ,s,2476.500900 ,0.390523,0.000000,0.362607,1.000000 ,k,1257.598500,s,1343.310400 ,wear,fruit,left ,0.529859,0.390523,right ,0.362607,0.850000,1.000000
999.000000,test,1.000000,34.000000, 4.000000,1.000000,2.000000 ,2.000000,2.000000,2.000000 ,4.000000,1.000000,2.000000 ,s,1471.474600 ,0.522960,1.000000,0.850000,1.000000 ,k,772.455500,k,1073.312600 ,fruit,wear,right ,0.522960,0.398254,right ,0.360338,0.850000,1.000000
999.000000,test,1.000000,35.000000, 1.000000,1.000000,1.000000 ,3.000000,2.000000,1.000000 ,1.000000,1.000000,1.000000 ,s,1628.086600 ,0.531125,1.000000,0.411100,0.000000 ,k,768.962300,s,310.533400 ,wear,fruit,left ,0.531125,0.411678,right ,0.411100,0.850000,1.000000
999.000000,test,1.000000,36.000000, 1.000000,1.000000,1.000000 ,3.000000,2.000000,1.000000 ,1.000000,1.000000,1.000000 ,s,471.317200 ,0.534072,1.000000,0.397120,1.000000 ,k,702.803800,s,385.634400 ,fruit,wear,right ,0.534072,0.432159,left ,0.397120,0.843319,1.000000
999.000000,test,1.000000,37.000000, 3.000000,2.000000,1.000000 ,2.000000,2.000000,2.000000 ,2.000000,2.000000,2.000000 ,k,672.198400 ,0.445119,0.000000,0.845917,0.000000 ,s,332.651900,s,367.981900 ,wear,fruit,left ,0.516905,0.445119,left ,0.447686,0.845917,1.000000
999.000000,test,1.000000,38.000000, 2.000000,2.000000,2.000000 ,4.000000,1.000000,2.000000 ,4.000000,1.000000,2.000000 ,k,597.783800 ,0.526480,1.000000,0.849920,1.000000 ,s,461.952200,k,385.071300 ,fruit,wear,left ,0.526480,0.450390,right ,0.435324,0.849920,1.000000
999.000000,test,1.000000,39.000000, 3.000000,2.000000,1.000000 ,2.000000,2.000000,2.000000 ,2.000000,2.000000,2.000000 ,k,959.210200 ,0.459232,0.000000,0.850000,1.000000 ,s,951.570200,k,565.524100 ,wear,fruit,right ,0.529396,0.459232,left ,0.449619,0.850000,1.000000
999.000000,test,1.000000,40.000000, 4.000000,1.000000,2.000000 ,2.000000,2.000000,2.000000 ,4.000000,1.000000,2.000000 ,s,1773.486300 ,0.540510,0.000000,0.849441,1.000000 ,k,648.237400,k,511.560700 ,fruit,wear,right ,0.540510,0.477442,right ,0.424185,0.849441,1.000000
999.000000,test,2.000000,1.000000, 4.000000,1.000000,2.000000 ,2.000000,2.000000,2.000000 ,4.000000,1.000000,2.000000 ,s,1412.148400 ,0.539026,1.000000,0.819327,1.000000 ,s,334.922500,k,311.013200 ,fruit,wear,left ,0.539026,0.465935,right ,0.380088,0.819327,1.000000
999.000000,test,2.000000,2.000000, 3.000000,2.000000,1.000000 ,1.000000,1.000000,1.000000 ,3.000000,2.000000,1.000000 ,s,447.856500 ,0.491186,1.000000,0.392434,0.000000 ,s,424.531700,s,863.650000 ,wear,fruit,left ,0.519371,0.491186,left ,0.392434,0.801321,1.000000
999.000000,test,2.000000,3.000000, 4.000000,1.000000,2.000000 ,2.000000,2.000000,2.000000 ,2.000000,2.000000,2.000000 ,k,723.502900 ,nan,nan,nan,nan ,nan,nan,nan,nan ,nan,nan,nan ,0.511299,0.461653,nan ,0.394677,0.850000,1.000000
999.000000,test,2.000000,4.000000, 1.000000,1.000000,1.000000 ,3.000000,2.000000,1.000000 ,1.000000,1.000000,1.000000 ,s,2681.031600 ,0.541611,1.000000,0.400583,1.000000 ,s,557.737600,k,363.582200 ,wear,fruit,right ,0.541611,0.475791,left ,0.400583,0.850000,1.000000
999.000000,test,2.000000,5.000000, 4.000000,1.000000,2.000000 ,1.000000,1.000000,1.000000 ,4.000000,1.000000,2.000000 ,s,1183.932800 ,0.560628,0.000000,0.821357,0.000000 ,s,359.147500,s,278.243800 ,wear,fruit,left ,0.560628,0.468444,left ,0.394578,0.821357,1.000000
999.000000,test,2.000000,6.000000, 4.000000,1.000000,2.000000 ,1.000000,1.000000,1.000000 ,1.000000,1.000000,1.000000 ,k,780.523000 ,0.577902,1.000000,0.373898,1.000000 ,k,286.066800,k,337.394900 ,fruit,wear,right ,0.577902,0.472792,right ,0.373898,0.837798,1.000000
999.000000,test,2.000000,7.000000, 3.000000,2.000000,1.000000 ,1.000000,1.000000,1.000000 ,1.000000,1.000000,1.000000 ,k,1090.315100 ,0.581750,1.000000,0.365630,0.000000 ,k,533.183700,s,308.511300 ,wear,fruit,left ,0.581750,0.468283,right ,0.365630,0.827935,1.000000
999.000000,test,2.000000,8.000000, 1.000000,1.000000,1.000000 ,3.000000,2.000000,1.000000 ,1.000000,1.000000,1.000000 ,s,979.997700 ,0.584331,1.000000,0.350037,1.000000 ,k,302.485600,k,359.540200 ,fruit,wear,right ,0.584331,0.472659,right ,0.350037,0.838961,1.000000
999.000000,test,2.000000,9.000000, 2.000000,2.000000,2.000000 ,4.000000,1.000000,2.000000 ,2.000000,2.000000,2.000000 ,s,921.093500 ,0.490596,0.000000,0.850000,1.000000 ,k,609.183900,s,447.971100 ,wear,fruit,left ,0.578947,0.490596,right ,0.364699,0.850000,1.000000
999.000000,test,2.000000,10.000000, 1.000000,1.000000,1.000000 ,4.000000,1.000000,2.000000 ,1.000000,1.000000,1.000000 ,s,879.724500 ,0.580922,0.000000,0.402831,0.000000 ,k,404.667500,k,337.555700 ,fruit,wear,right ,0.580922,0.489492,right ,0.402831,0.836758,1.000000
999.000000,test,2.000000,11.000000, 2.000000,2.000000,2.000000 ,3.000000,2.000000,1.000000 ,2.000000,2.000000,2.000000 ,s,871.684700 ,0.476355,1.000000,0.804131,1.000000 ,k,324.259200,s,367.658500 ,wear,fruit,left ,0.557608,0.476355,right ,0.373037,0.804131,1.000000
999.000000,test,2.000000,12.000000, 4.000000,1.000000,2.000000 ,2.000000,2.000000,2.000000 ,4.000000,1.000000,2.000000 ,s,875.886400 ,0.556150,1.000000,0.816843,1.000000 ,s,360.843300,s,336.094100 ,fruit,wear,left ,0.556150,0.467262,left ,0.365504,0.816843,1.000000
999.000000,test,2.000000,13.000000, 2.000000,2.000000,2.000000 ,4.000000,1.000000,2.000000 ,4.000000,1.000000,2.000000 ,k,956.236600 ,0.542769,1.000000,0.842076,1.000000 ,k,599.028300,k,375.618100 ,wear,fruit,right ,0.542769,0.495294,right ,0.397584,0.842076,1.000000
999.000000,test,2.000000,14.000000, 4.000000,1.000000,2.000000 ,2.000000,2.000000,2.000000 ,4.000000,1.000000,2.000000 ,s,1086.177300 ,0.552289,1.000000,0.850000,1.000000 ,k,367.389800,s,320.925500 ,fruit,wear,right ,0.552289,0.472475,left ,0.366231,0.850000,1.000000
999.000000,test,2.000000,15.000000, 1.000000,1.000000,1.000000 ,3.000000,2.000000,1.000000 ,1.000000,1.000000,1.000000 ,s,1221.490000 ,0.551810,0.000000,0.366511,0.000000 ,s,333.134900,s,319.176000 ,fruit,wear,left ,0.551810,0.473008,left ,0.366511,0.850000,1.000000
999.000000,test,2.000000,16.000000, 2.000000,2.000000,2.000000 ,3.000000,2.000000,1.000000 ,3.000000,2.000000,1.000000 ,k,688.492300 ,0.493035,0.000000,0.338641,0.000000 ,k,456.200100,k,403.047700 ,wear,fruit,right ,0.506872,0.493035,right ,0.338641,0.850000,1.000000
999.000000,test,2.000000,17.000000, 2.000000,2.000000,2.000000 ,4.000000,1.000000,2.000000 ,2.000000,2.000000,2.000000 ,s,799.776300 ,0.485061,0.000000,0.810733,0.000000 ,s,334.136700,k,327.533400 ,fruit,wear,left ,0.510003,0.485061,right ,0.365111,0.810733,1.000000
999.000000,test,2.000000,18.000000, 3.000000,2.000000,1.000000 ,1.000000,1.000000,1.000000 ,1.000000,1.000000,1.000000 ,k,908.109700 ,0.489773,1.000000,0.375197,0.000000 ,s,290.032200,s,416.662900 ,fruit,wear,left ,0.489773,0.480232,left ,0.375197,0.808446,1.000000
999.000000,test,2.000000,19.000000, 2.000000,2.000000,2.000000 ,4.000000,1.000000,2.000000 ,4.000000,1.000000,2.000000 ,k,771.358700 ,0.477839,0.000000,0.819503,0.000000 ,s,805.967300,k,383.514800 ,wear,fruit,right ,0.477839,0.488670,left ,0.373845,0.819503,1.000000
999.000000,test,2.000000,20.000000, 4.000000,1.000000,2.000000 ,1.000000,1.000000,1.000000 ,4.000000,1.000000,2.000000 ,s,1454.228400 ,0.477188,0.000000,0.813358,1.000000 ,k,480.364100,k,335.950000 ,wear,fruit,right ,0.477188,0.479022,right ,0.366193,0.813358,1.000000
999.000000,test,2.000000,21.000000, 2.000000,2.000000,2.000000 ,3.000000,2.000000,1.000000 ,2.000000,2.000000,2.000000 ,s,1485.755900 ,0.480480,0.000000,0.828046,1.000000 ,s,1214.707000,s,427.500400 ,wear,fruit,left ,0.471429,0.480480,left ,0.368094,0.828046,1.000000
999.000000,test,2.000000,22.000000, 4.000000,1.000000,2.000000 ,1.000000,1.000000,1.000000 ,4.000000,1.000000,2.000000 ,s,1590.769900 ,0.447759,1.000000,0.813242,1.000000 ,k,383.253000,s,337.867400 ,fruit,wear,right ,0.447759,0.499161,left ,0.363424,0.813242,1.000000
999.000000,test,2.000000,23.000000, 3.000000,2.000000,1.000000 ,1.000000,1.000000,1.000000 ,3.000000,2.000000,1.000000 ,s,983.954100 ,nan,nan,0.380987,1.000000 ,s,334.317600,nan,nan ,fruit,wear,left ,0.480053,0.511341,right ,0.380987,0.821418,1.000000
999.000000,test,2.000000,24.000000, 1.000000,1.000000,1.000000 ,4.000000,1.000000,2.000000 ,4.000000,1.000000,2.000000 ,k,1162.589500 ,0.504802,1.000000,0.811113,1.000000 ,s,689.998700,k,269.621400 ,wear,fruit,right ,0.504802,0.503899,left ,0.374791,0.811113,1.000000
999.000000,test,2.000000,25.000000, 2.000000,2.000000,2.000000 ,3.000000,2.000000,1.000000 ,3.000000,2.000000,1.000000 ,k,2086.942000 ,0.470723,0.000000,0.388511,0.000000 ,k,1533.945400,k,356.491200 ,wear,fruit,right ,0.531017,0.470723,right ,0.388511,0.763464,1.000000
999.000000,test,2.000000,26.000000, 3.000000,2.000000,1.000000 ,2.000000,2.000000,2.000000 ,2.000000,2.000000,2.000000 ,k,1042.474300 ,0.480718,0.000000,0.759426,1.000000 ,s,465.030800,k,360.293000 ,fruit,wear,left ,0.555633,0.480718,right ,0.380678,0.759426,1.000000
999.000000,test,2.000000,27.000000, 1.000000,1.000000,1.000000 ,3.000000,2.000000,1.000000 ,3.000000,2.000000,1.000000 ,k,1149.391000 ,0.451829,1.000000,0.371193,1.000000 ,s,352.645200,s,321.245000 ,wear,fruit,left ,0.525982,0.451829,left ,0.371193,0.779210,1.000000
999.000000,test,2.000000,28.000000, 3.000000,2.000000,1.000000 ,1.000000,1.000000,1.000000 ,1.000000,1.000000,1.000000 ,k,1812.685600 ,0.513573,1.000000,0.420337,1.000000 ,s,279.698800,s,360.955900 ,wear,fruit,left ,0.513573,0.467633,left ,0.420337,0.798846,1.000000
999.000000,test,2.000000,29.000000, 3.000000,2.000000,1.000000 ,1.000000,1.000000,1.000000 ,1.000000,1.000000,1.000000 ,k,880.442400 ,0.483452,0.000000,0.400206,1.000000 ,k,424.130300,s,216.715500 ,wear,fruit,left ,0.483452,0.447660,right ,0.400206,0.835110,1.000000
999.000000,test,2.000000,30.000000, 4.000000,1.000000,2.000000 ,1.000000,1.000000,1.000000 ,4.000000,1.000000,2.000000 ,s,1449.708200 ,0.482908,1.000000,0.826068,1.000000 ,s,529.668000,s,456.758800 ,wear,fruit,left ,0.482908,0.467210,left ,0.413786,0.826068,1.000000
999.000000,test,2.000000,31.000000, 4.000000,1.000000,2.000000 ,1.000000,1.000000,1.000000 ,4.000000,1.000000,2.000000 ,s,1278.753500 ,0.500394,1.000000,0.788799,1.000000 ,s,295.912100,s,257.743700 ,wear,fruit,left ,0.500394,0.494150,left ,0.416536,0.788799,1.000000
999.000000,test,2.000000,32.000000, 1.000000,1.000000,1.000000 ,4.000000,1.000000,2.000000 ,4.000000,1.000000,2.000000 ,k,756.741200 ,0.529083,0.000000,0.807989,1.000000 ,k,335.073200,s,354.567900 ,fruit,wear,right ,0.529083,0.470428,left ,0.444412,0.807989,1.000000
999.000000,test,2.000000,33.000000, 4.000000,1.000000,2.000000 ,1.000000,1.000000,1.000000 ,4.000000,1.000000,2.000000 ,s,1240.939500 ,0.548390,1.000000,0.784072,1.000000 ,s,541.007000,s,251.893800 ,wear,fruit,left ,0.548390,0.478464,left ,0.444056,0.784072,1.000000
999.000000,test,2.000000,34.000000, 4.000000,1.000000,2.000000 ,1.000000,1.000000,1.000000 ,4.000000,1.000000,2.000000 ,s,814.116200 ,0.577787,0.000000,0.812418,1.000000 ,s,375.448000,s,598.402300 ,fruit,wear,left ,0.577787,0.494080,left ,0.452346,0.812418,1.000000
999.000000,test,2.000000,35.000000, 3.000000,2.000000,1.000000 ,2.000000,2.000000,2.000000 ,3.000000,2.000000,1.000000 ,s,1380.183700 ,0.500458,0.000000,0.443261,0.000000 ,s,342.912000,k,392.632200 ,fruit,wear,left ,0.550454,0.500458,right ,0.443261,0.815057,1.000000
999.000000,test,2.000000,36.000000, 2.000000,2.000000,2.000000 ,3.000000,2.000000,1.000000 ,2.000000,2.000000,2.000000 ,s,1870.400700 ,0.506679,0.000000,0.812712,1.000000 ,k,263.240500,k,286.819200 ,wear,fruit,right ,0.517391,0.506679,right ,0.451606,0.812712,1.000000
999.000000,test,2.000000,37.000000, 3.000000,2.000000,1.000000 ,2.000000,2.000000,2.000000 ,3.000000,2.000000,1.000000 ,s,738.362100 ,0.535854,0.000000,0.467226,1.000000 ,k,363.777000,s,291.130500 ,wear,fruit,left ,0.522017,0.535854,right ,0.467226,0.810080,1.000000
999.000000,test,2.000000,38.000000, 2.000000,2.000000,2.000000 ,4.000000,1.000000,2.000000 ,4.000000,1.000000,2.000000 ,k,1133.086500 ,0.533525,0.000000,0.800216,1.000000 ,k,456.807700,s,365.528200 ,fruit,wear,right ,0.533525,0.552031,left ,0.471748,0.800216,1.000000
999.000000,test,2.000000,39.000000, 3.000000,2.000000,1.000000 ,2.000000,2.000000,2.000000 ,3.000000,2.000000,1.000000 ,s,744.068000 ,0.580093,1.000000,0.478555,0.000000 ,k,402.183100,s,429.080900 ,wear,fruit,left ,0.558876,0.580093,right ,0.478555,0.849394,1.000000
999.000000,test,2.000000,40.000000, 3.000000,2.000000,1.000000 ,1.000000,1.000000,1.000000 ,1.000000,1.000000,1.000000 ,k,695.627600 ,0.581674,1.000000,0.460855,0.000000 ,s,344.470000,s,305.833900 ,fruit,wear,left ,0.581674,0.585183,left ,0.460855,0.845984,1.000000
999.000000,test,3.000000,1.000000, 2.000000,2.000000,2.000000 ,3.000000,2.000000,1.000000 ,2.000000,2.000000,2.000000 ,s,1434.360100 ,0.594192,0.000000,0.850000,1.000000 ,k,644.921900,k,348.721800 ,wear,fruit,right ,0.626748,0.594192,right ,0.455176,0.850000,1.000000
999.000000,test,3.000000,2.000000, 2.000000,2.000000,2.000000 ,3.000000,2.000000,1.000000 ,2.000000,2.000000,2.000000 ,s,663.086600 ,0.592365,0.000000,0.850000,0.000000 ,k,262.736100,k,463.207200 ,fruit,wear,right ,0.645264,0.592365,right ,0.452533,0.850000,1.000000
999.000000,test,3.000000,3.000000, 2.000000,2.000000,2.000000 ,3.000000,2.000000,1.000000 ,2.000000,2.000000,2.000000 ,s,637.254900 ,0.603146,1.000000,0.850000,1.000000 ,k,314.011500,s,443.357700 ,fruit,wear,right ,0.666096,0.603146,left ,0.427660,0.850000,1.000000
999.000000,test,3.000000,4.000000, 2.000000,2.000000,2.000000 ,3.000000,2.000000,1.000000 ,3.000000,2.000000,1.000000 ,k,482.883000 ,0.586676,1.000000,0.411333,0.000000 ,k,291.136900,k,424.508500 ,wear,fruit,right ,0.636437,0.586676,right ,0.411333,0.850000,1.000000
999.000000,test,3.000000,5.000000, 2.000000,2.000000,2.000000 ,3.000000,2.000000,1.000000 ,3.000000,2.000000,1.000000 ,k,599.275800 ,0.576241,0.000000,0.375683,0.000000 ,s,300.917900,k,649.486700 ,fruit,wear,left ,0.665452,0.576241,right ,0.375683,0.850000,1.000000
999.000000,test,3.000000,6.000000, 4.000000,1.000000,2.000000 ,1.000000,1.000000,1.000000 ,4.000000,1.000000,2.000000 ,s,633.201100 ,0.661828,1.000000,0.824171,1.000000 ,s,289.171800,s,181.406400 ,fruit,wear,left ,0.661828,0.604284,left ,0.389121,0.824171,1.000000
999.000000,test,3.000000,7.000000, 3.000000,2.000000,1.000000 ,2.000000,2.000000,2.000000 ,2.000000,2.000000,2.000000 ,k,1275.686700 ,0.614496,0.000000,0.839818,1.000000 ,s,352.083800,s,495.739900 ,fruit,wear,left ,0.668932,0.614496,left ,0.397445,0.839818,1.000000
999.000000,test,3.000000,8.000000, 1.000000,1.000000,1.000000 ,3.000000,2.000000,1.000000 ,1.000000,1.000000,1.000000 ,s,1445.667600 ,0.645723,1.000000,0.382905,0.000000 ,k,1455.873300,k,285.812400 ,fruit,wear,right ,0.645723,0.641446,right ,0.382905,0.850000,1.000000
999.000000,test,3.000000,9.000000, 4.000000,1.000000,2.000000 ,2.000000,2.000000,2.000000 ,4.000000,1.000000,2.000000 ,s,1052.218500 ,0.639483,1.000000,0.850000,1.000000 ,s,335.681500,s,279.623700 ,wear,fruit,left ,0.639483,0.593698,left ,0.383636,0.850000,1.000000
999.000000,test,3.000000,10.000000, 4.000000,1.000000,2.000000 ,2.000000,2.000000,2.000000 ,4.000000,1.000000,2.000000 ,s,703.342100 ,0.594914,1.000000,0.850000,0.000000 ,k,263.319500,k,322.724700 ,fruit,wear,right ,0.594914,0.574875,right ,0.418048,0.850000,1.000000
999.000000,test,3.000000,11.000000, 4.000000,1.000000,2.000000 ,2.000000,2.000000,2.000000 ,2.000000,2.000000,2.000000 ,k,979.331400 ,0.566918,0.000000,0.835353,1.000000 ,k,310.133000,k,242.624300 ,wear,fruit,right ,0.602585,0.566918,right ,0.382777,0.835353,1.000000
999.000000,test,3.000000,12.000000, 2.000000,2.000000,2.000000 ,4.000000,1.000000,2.000000 ,4.000000,1.000000,2.000000 ,k,819.833900 ,0.608442,0.000000,0.827743,1.000000 ,k,349.990800,k,265.388800 ,wear,fruit,right ,0.608442,0.578591,right ,0.373216,0.827743,1.000000
999.000000,test,3.000000,13.000000, 1.000000,1.000000,1.000000 ,4.000000,1.000000,2.000000 ,4.000000,1.000000,2.000000 ,k,549.435500 ,0.606176,1.000000,0.819380,0.000000 ,s,392.413200,k,283.297000 ,wear,fruit,right ,0.606176,0.561615,left ,0.370080,0.819380,1.000000
999.000000,test,3.000000,14.000000, 4.000000,1.000000,2.000000 ,2.000000,2.000000,2.000000 ,4.000000,1.000000,2.000000 ,s,773.094900 ,0.603671,0.000000,0.850000,1.000000 ,s,352.111800,s,295.202200 ,wear,fruit,left ,0.603671,0.570617,left ,0.358924,0.850000,1.000000
999.000000,test,3.000000,15.000000, 3.000000,2.000000,1.000000 ,2.000000,2.000000,2.000000 ,2.000000,2.000000,2.000000 ,k,1008.637000 ,0.564063,1.000000,0.821527,0.000000 ,k,421.677600,s,320.405800 ,fruit,wear,right ,0.581240,0.564063,left ,0.329257,0.821527,1.000000
999.000000,test,3.000000,16.000000, 3.000000,2.000000,1.000000 ,2.000000,2.000000,2.000000 ,3.000000,2.000000,1.000000 ,s,778.492600 ,0.571701,0.000000,0.334204,0.000000 ,s,272.515400,s,255.471300 ,fruit,wear,left ,0.597528,0.571701,left ,0.334204,0.836669,1.000000
999.000000,test,3.000000,17.000000, 1.000000,1.000000,1.000000 ,4.000000,1.000000,2.000000 ,4.000000,1.000000,2.000000 ,k,714.865200 ,0.545279,0.000000,0.842187,1.000000 ,s,328.965800,k,295.284100 ,wear,fruit,right ,0.545279,0.579557,left ,0.321765,0.842187,1.000000
999.000000,test,3.000000,18.000000, 4.000000,1.000000,2.000000 ,2.000000,2.000000,2.000000 ,4.000000,1.000000,2.000000 ,s,1013.119200 ,0.566185,0.000000,0.808543,1.000000 ,k,352.282000,k,318.272800 ,wear,fruit,right ,0.566185,0.583856,right ,0.319944,0.808543,1.000000
999.000000,test,3.000000,19.000000, 2.000000,2.000000,2.000000 ,4.000000,1.000000,2.000000 ,4.000000,1.000000,2.000000 ,k,839.809200 ,0.543779,1.000000,0.804848,1.000000 ,k,351.938500,s,208.766800 ,wear,fruit,left ,0.543779,0.605960,right ,0.356502,0.804848,1.000000
999.000000,test,3.000000,20.000000, 1.000000,1.000000,1.000000 ,3.000000,2.000000,1.000000 ,3.000000,2.000000,1.000000 ,k,1862.166200 ,0.586343,1.000000,0.351125,0.000000 ,k,295.659100,k,231.394900 ,fruit,wear,right ,0.548070,0.586343,right ,0.351125,0.789281,1.000000
999.000000,test,3.000000,21.000000, 3.000000,2.000000,1.000000 ,2.000000,2.000000,2.000000 ,2.000000,2.000000,2.000000 ,k,933.583900 ,0.605560,1.000000,0.798988,0.000000 ,k,312.834000,k,277.667800 ,fruit,wear,right ,0.511818,0.605560,right ,0.369436,0.798988,1.000000
999.000000,test,3.000000,22.000000, 3.000000,2.000000,1.000000 ,2.000000,2.000000,2.000000 ,2.000000,2.000000,2.000000 ,k,760.252500 ,0.577858,1.000000,0.765488,1.000000 ,k,279.315600,k,257.174600 ,fruit,wear,right ,0.509194,0.577858,right ,0.348598,0.765488,1.000000
999.000000,test,3.000000,23.000000, 4.000000,1.000000,2.000000 ,1.000000,1.000000,1.000000 ,4.000000,1.000000,2.000000 ,s,1202.993300 ,0.503772,0.000000,0.773906,1.000000 ,s,496.179100,k,322.485100 ,wear,fruit,right ,0.503772,0.568018,left ,0.361447,0.773906,1.000000
999.000000,test,3.000000,24.000000, 3.000000,2.000000,1.000000 ,2.000000,2.000000,2.000000 ,2.000000,2.000000,2.000000 ,k,1023.450400 ,nan,nan,nan,nan ,nan,nan,nan,nan ,nan,nan,nan ,0.518282,0.557236,nan ,0.372977,0.804235,1.000000
999.000000,test,3.000000,25.000000, 4.000000,1.000000,2.000000 ,1.000000,1.000000,1.000000 ,4.000000,1.000000,2.000000 ,s,591.267800 ,0.505402,1.000000,0.800387,1.000000 ,s,394.143400,k,292.700500 ,fruit,wear,left ,0.505402,0.547121,right ,0.427595,0.800387,1.000000
999.000000,test,3.000000,26.000000, 2.000000,2.000000,2.000000 ,4.000000,1.000000,2.000000 ,4.000000,1.000000,2.000000 ,k,566.482500 ,0.494689,0.000000,0.813887,1.000000 ,k,314.291400,s,455.982600 ,fruit,wear,right ,0.494689,0.553928,left ,0.429618,0.813887,1.000000
999.000000,test,3.000000,27.000000, 2.000000,2.000000,2.000000 ,4.000000,1.000000,2.000000 ,4.000000,1.000000,2.000000 ,k,885.752100 ,0.485088,0.000000,0.787847,1.000000 ,k,396.113500,s,338.416300 ,wear,fruit,left ,0.485088,0.548627,right ,0.425377,0.787847,1.000000
999.000000,test,3.000000,28.000000, 4.000000,1.000000,2.000000 ,2.000000,2.000000,2.000000 ,4.000000,1.000000,2.000000 ,s,568.737000 ,0.498090,0.000000,0.780963,1.000000 ,s,296.026100,s,437.146800 ,wear,fruit,left ,0.498090,0.539234,left ,0.429113,0.780963,1.000000
999.000000,test,3.000000,29.000000, 3.000000,2.000000,1.000000 ,1.000000,1.000000,1.000000 ,3.000000,2.000000,1.000000 ,s,1292.784500 ,0.547878,0.000000,0.426261,0.000000 ,k,269.916300,k,294.632500 ,fruit,wear,right ,0.496681,0.547878,right ,0.426261,0.729977,1.000000
999.000000,test,3.000000,30.000000, 4.000000,1.000000,2.000000 ,1.000000,1.000000,1.000000 ,4.000000,1.000000,2.000000 ,s,983.178400 ,0.504709,0.000000,0.753055,1.000000 ,s,311.400700,s,351.020200 ,fruit,wear,left ,0.504709,0.557039,left ,0.432645,0.753055,1.000000
999.000000,test,3.000000,31.000000, 1.000000,1.000000,1.000000 ,4.000000,1.000000,2.000000 ,4.000000,1.000000,2.000000 ,k,1028.592700 ,0.505611,0.000000,0.723818,1.000000 ,k,270.836900,k,277.759700 ,wear,fruit,right ,0.505611,0.558126,right ,0.456199,0.723818,1.000000
999.000000,test,3.000000,32.000000, 3.000000,2.000000,1.000000 ,2.000000,2.000000,2.000000 ,2.000000,2.000000,2.000000 ,k,954.517100 ,0.535684,1.000000,0.692284,0.000000 ,s,254.247900,s,1023.541200 ,wear,fruit,left ,0.524640,0.535684,left ,0.439401,0.692284,1.000000
999.000000,test,3.000000,33.000000, 2.000000,2.000000,2.000000 ,4.000000,1.000000,2.000000 ,4.000000,1.000000,2.000000 ,k,694.101900 ,0.526133,1.000000,0.688442,1.000000 ,k,451.980000,s,1046.000800 ,wear,fruit,left ,0.526133,0.524074,right ,0.471023,0.688442,1.000000
999.000000,test,3.000000,34.000000, 4.000000,1.000000,2.000000 ,1.000000,1.000000,1.000000 ,4.000000,1.000000,2.000000 ,s,829.786400 ,0.520054,0.000000,0.699631,1.000000 ,k,312.830800,s,343.892500 ,wear,fruit,left ,0.520054,0.524090,right ,0.523139,0.699631,1.000000
999.000000,test,3.000000,35.000000, 4.000000,1.000000,2.000000 ,2.000000,2.000000,2.000000 ,2.000000,2.000000,2.000000 ,k,1776.779200 ,0.537307,0.000000,0.705839,1.000000 ,k,328.623800,s,449.133100 ,fruit,wear,right ,0.536707,0.537307,left ,0.557434,0.705839,1.000000
999.000000,test,3.000000,36.000000, 1.000000,1.000000,1.000000 ,4.000000,1.000000,2.000000 ,4.000000,1.000000,2.000000 ,k,1042.882600 ,0.542381,1.000000,0.713864,1.000000 ,k,328.099300,s,303.717500 ,wear,fruit,left ,0.542381,0.482957,right ,0.565919,0.713864,1.000000
999.000000,test,3.000000,37.000000, 1.000000,1.000000,1.000000 ,3.000000,2.000000,1.000000 ,3.000000,2.000000,1.000000 ,k,1147.244700 ,0.512069,0.000000,0.566107,1.000000 ,s,271.185800,s,303.585200 ,wear,fruit,left ,0.553558,0.512069,left ,0.566107,0.702255,1.000000
999.000000,test,3.000000,38.000000, 3.000000,2.000000,1.000000 ,1.000000,1.000000,1.000000 ,1.000000,1.000000,1.000000 ,k,668.063300 ,0.540126,0.000000,0.574394,1.000000 ,s,337.903000,k,295.490100 ,wear,fruit,right ,0.540126,0.529765,left ,0.574394,0.700852,1.000000
999.000000,test,3.000000,39.000000, 3.000000,2.000000,1.000000 ,2.000000,2.000000,2.000000 ,2.000000,2.000000,2.000000 ,k,1134.834100 ,0.565603,1.000000,0.701335,1.000000 ,s,351.947600,k,885.903700 ,wear,fruit,right ,0.535360,0.565603,left ,0.572975,0.701335,1.000000
999.000000,test,3.000000,40.000000, 1.000000,1.000000,1.000000 ,3.000000,2.000000,1.000000 ,3.000000,2.000000,1.000000 ,k,615.750700 ,0.578999,1.000000,0.569140,1.000000 ,k,256.174600,k,313.505800 ,fruit,wear,right ,0.516990,0.578999,right ,0.569140,0.739847,1.000000
999.000000,test,4.000000,1.000000, 3.000000,2.000000,1.000000 ,2.000000,2.000000,2.000000 ,2.000000,2.000000,2.000000 ,k,792.475700 ,0.611443,0.000000,0.767797,1.000000 ,k,284.786900,s,471.172000 ,wear,fruit,left ,0.526112,0.611443,right ,0.560262,0.767797,1.000000
999.000000,test,4.000000,2.000000, 3.000000,2.000000,1.000000 ,2.000000,2.000000,2.000000 ,2.000000,2.000000,2.000000 ,k,530.026000 ,0.615163,0.000000,0.749691,1.000000 ,k,297.070200,s,519.903200 ,fruit,wear,right ,0.522072,0.615163,left ,0.525180,0.749691,1.000000
999.000000,test,4.000000,3.000000, 1.000000,1.000000,1.000000 ,3.000000,2.000000,1.000000 ,3.000000,2.000000,1.000000 ,k,1035.615100 ,0.618687,1.000000,0.543823,1.000000 ,k,360.068200,s,401.968900 ,fruit,wear,right ,0.487138,0.618687,left ,0.543823,0.750005,1.000000
999.000000,test,4.000000,4.000000, 2.000000,2.000000,2.000000 ,4.000000,1.000000,2.000000 ,2.000000,2.000000,2.000000 ,s,1024.755800 ,nan,nan,0.729802,0.000000 ,k,321.488000,nan,nan ,wear,fruit,right ,0.501021,0.617890,right ,0.522532,0.729802,1.000000
999.000000,test,4.000000,5.000000, 1.000000,1.000000,1.000000 ,3.000000,2.000000,1.000000 ,3.000000,2.000000,1.000000 ,k,623.041400 ,0.589468,1.000000,0.544121,0.000000 ,k,298.121300,k,300.055600 ,wear,fruit,right ,0.506862,0.589468,right ,0.544121,0.688211,1.000000
999.000000,test,4.000000,6.000000, 2.000000,2.000000,2.000000 ,3.000000,2.000000,1.000000 ,2.000000,2.000000,2.000000 ,s,1435.269200 ,0.593630,0.000000,0.677239,1.000000 ,s,304.053900,s,300.216100 ,wear,fruit,left ,0.498482,0.593630,left ,0.565180,0.677239,1.000000
999.000000,test,4.000000,7.000000, 2.000000,2.000000,2.000000 ,4.000000,1.000000,2.000000 ,4.000000,1.000000,2.000000 ,k,1048.825900 ,0.474897,1.000000,0.653370,1.000000 ,k,261.828100,k,243.520700 ,fruit,wear,right ,0.474897,0.604288,right ,0.541047,0.653370,1.000000
999.000000,test,4.000000,8.000000, 1.000000,1.000000,1.000000 ,4.000000,1.000000,2.000000 ,4.000000,1.000000,2.000000 ,k,777.227900 ,0.443449,0.000000,0.657158,1.000000 ,s,313.761300,s,280.844400 ,wear,fruit,left ,0.443449,0.591439,left ,0.522657,0.657158,1.000000
999.000000,test,4.000000,9.000000, 3.000000,2.000000,1.000000 ,2.000000,2.000000,2.000000 ,2.000000,2.000000,2.000000 ,k,1306.914500 ,0.576411,0.000000,0.660654,0.000000 ,s,611.868400,s,296.230200 ,fruit,wear,left ,0.426873,0.576411,left ,0.536604,0.660654,1.000000
999.000000,test,4.000000,10.000000, 3.000000,2.000000,1.000000 ,1.000000,1.000000,1.000000 ,1.000000,1.000000,1.000000 ,k,1118.211700 ,0.418941,1.000000,0.545653,1.000000 ,s,680.501800,s,336.447400 ,wear,fruit,left ,0.418941,0.579305,left ,0.545653,0.644337,1.000000
999.000000,test,4.000000,11.000000, 3.000000,2.000000,1.000000 ,2.000000,2.000000,2.000000 ,2.000000,2.000000,2.000000 ,k,1350.809700 ,0.591339,1.000000,0.680330,1.000000 ,s,847.282800,k,344.853800 ,fruit,wear,left ,0.397602,0.591339,right ,0.523375,0.680330,1.000000
999.000000,test,4.000000,12.000000, 3.000000,2.000000,1.000000 ,2.000000,2.000000,2.000000 ,2.000000,2.000000,2.000000 ,k,1214.673900 ,0.564771,0.000000,0.699769,0.000000 ,k,848.286200,s,135.244600 ,wear,fruit,left ,0.402344,0.564771,right ,0.541003,0.699769,1.000000
999.000000,test,4.000000,13.000000, 2.000000,2.000000,2.000000 ,3.000000,2.000000,1.000000 ,2.000000,2.000000,2.000000 ,s,1133.006400 ,0.570071,0.000000,0.677635,1.000000 ,k,616.011500,s,287.537200 ,fruit,wear,right ,0.383696,0.570071,left ,0.541841,0.677635,1.000000
999.000000,test,4.000000,14.000000, 3.000000,2.000000,1.000000 ,2.000000,2.000000,2.000000 ,2.000000,2.000000,2.000000 ,k,1082.255300 ,0.595229,0.000000,0.680512,0.000000 ,s,336.947600,k,640.342700 ,fruit,wear,left ,0.371974,0.595229,right ,0.513804,0.680512,1.000000
999.000000,test,4.000000,15.000000, 1.000000,1.000000,1.000000 ,3.000000,2.000000,1.000000 ,1.000000,1.000000,1.000000 ,s,1044.073600 ,0.357867,0.000000,0.501623,1.000000 ,s,304.519900,s,376.664100 ,fruit,wear,left ,0.357867,0.562939,left ,0.501623,0.713166,1.000000
999.000000,test,4.000000,16.000000, 1.000000,1.000000,1.000000 ,4.000000,1.000000,2.000000 ,1.000000,1.000000,1.000000 ,s,830.882300 ,0.336085,0.000000,0.484947,0.000000 ,s,337.028500,s,316.642700 ,fruit,wear,left ,0.336085,0.556780,left ,0.484947,0.758131,1.000000
999.000000,test,4.000000,17.000000, 1.000000,1.000000,1.000000 ,4.000000,1.000000,2.000000 ,1.000000,1.000000,1.000000 ,s,858.211500 ,0.340516,0.000000,0.499502,1.000000 ,s,465.945700,s,312.103400 ,wear,fruit,left ,0.340516,0.550295,left ,0.499502,0.727762,1.000000
999.000000,test,4.000000,18.000000, 3.000000,2.000000,1.000000 ,1.000000,1.000000,1.000000 ,3.000000,2.000000,1.000000 ,s,1215.652300 ,0.538486,0.000000,0.503056,1.000000 ,k,776.952200,s,342.734400 ,wear,fruit,left ,0.322886,0.538486,right ,0.503056,0.741857,1.000000
999.000000,test,4.000000,19.000000, 3.000000,2.000000,1.000000 ,2.000000,2.000000,2.000000 ,2.000000,2.000000,2.000000 ,k,912.947100 ,0.544545,1.000000,0.747609,1.000000 ,k,606.734800,s,399.082600 ,fruit,wear,right ,0.327956,0.544545,left ,0.514254,0.747609,1.000000
999.000000,test,4.000000,20.000000, 1.000000,1.000000,1.000000 ,3.000000,2.000000,1.000000 ,1.000000,1.000000,1.000000 ,s,675.029900 ,0.327351,0.000000,0.506584,0.000000 ,k,503.757900,k,385.836800 ,wear,fruit,right ,0.327351,0.511264,right ,0.506584,0.739863,1.000000
999.000000,test,4.000000,21.000000, 2.000000,2.000000,2.000000 ,4.000000,1.000000,2.000000 ,4.000000,1.000000,2.000000 ,k,1249.457400 ,0.283452,0.000000,0.742178,0.000000 ,s,458.690700,k,1542.857600 ,fruit,wear,left ,0.283452,0.487288,right ,0.483861,0.742178,1.000000
999.000000,test,4.000000,22.000000, 4.000000,1.000000,2.000000 ,2.000000,2.000000,2.000000 ,4.000000,1.000000,2.000000 ,s,998.373800 ,0.274325,0.000000,0.703997,1.000000 ,s,530.777000,s,280.301100 ,wear,fruit,left ,0.274325,0.494628,left ,0.456453,0.703997,1.000000
999.000000,test,4.000000,23.000000, 1.000000,1.000000,1.000000 ,4.000000,1.000000,2.000000 ,4.000000,1.000000,2.000000 ,k,1156.941900 ,0.244940,1.000000,0.708821,1.000000 ,s,360.389300,s,289.278500 ,wear,fruit,left ,0.244940,0.512462,left ,0.467333,0.708821,1.000000
999.000000,test,4.000000,24.000000, 2.000000,2.000000,2.000000 ,3.000000,2.000000,1.000000 ,2.000000,2.000000,2.000000 ,s,875.136300 ,0.507011,0.000000,0.719901,1.000000 ,k,406.017000,k,775.512000 ,wear,fruit,right ,0.244772,0.507011,right ,0.470219,0.719901,1.000000
999.000000,test,4.000000,25.000000, 4.000000,1.000000,2.000000 ,1.000000,1.000000,1.000000 ,4.000000,1.000000,2.000000 ,s,846.663200 ,0.221070,0.000000,0.745597,0.000000 ,k,360.373500,k,363.592600 ,wear,fruit,right ,0.221070,0.507750,right ,0.482453,0.745597,1.000000
999.000000,test,4.000000,26.000000, 2.000000,2.000000,2.000000 ,4.000000,1.000000,2.000000 ,2.000000,2.000000,2.000000 ,s,1463.742400 ,0.501971,0.000000,0.749504,1.000000 ,k,806.022100,s,209.845300 ,wear,fruit,left ,0.215622,0.501971,right ,0.466050,0.749504,1.000000
999.000000,test,4.000000,27.000000, 2.000000,2.000000,2.000000 ,3.000000,2.000000,1.000000 ,2.000000,2.000000,2.000000 ,s,793.582200 ,0.522125,1.000000,0.787564,1.000000 ,s,377.946700,s,497.650100 ,fruit,wear,left ,0.224263,0.522125,left ,0.472853,0.787564,1.000000
999.000000,test,4.000000,28.000000, 4.000000,1.000000,2.000000 ,2.000000,2.000000,2.000000 ,2.000000,2.000000,2.000000 ,k,500.391700 ,0.503671,0.000000,0.797480,1.000000 ,k,534.115800,k,282.480900 ,fruit,wear,right ,0.234770,0.503671,right ,0.468933,0.797480,1.000000
999.000000,test,4.000000,29.000000, 3.000000,2.000000,1.000000 ,2.000000,2.000000,2.000000 ,2.000000,2.000000,2.000000 ,k,632.355900 ,0.485220,1.000000,0.800548,0.000000 ,k,271.208200,k,250.517400 ,wear,fruit,right ,0.216560,0.485220,right ,0.456192,0.800548,1.000000
999.000000,test,4.000000,30.000000, 3.000000,2.000000,1.000000 ,1.000000,1.000000,1.000000 ,1.000000,1.000000,1.000000 ,k,1605.180300 ,0.242460,0.000000,0.439646,1.000000 ,k,256.257400,k,421.209600 ,fruit,wear,right ,0.242460,0.487370,right ,0.439646,0.842293,1.000000
999.000000,test,4.000000,31.000000, 3.000000,2.000000,1.000000 ,2.000000,2.000000,2.000000 ,2.000000,2.000000,2.000000 ,k,561.964000 ,0.499001,1.000000,0.850000,1.000000 ,s,326.018400,k,287.707900 ,wear,fruit,right ,0.232670,0.499001,left ,0.441419,0.850000,1.000000
999.000000,test,4.000000,32.000000, 3.000000,2.000000,1.000000 ,2.000000,2.000000,2.000000 ,2.000000,2.000000,2.000000 ,k,711.636300 ,0.503960,1.000000,0.822639,1.000000 ,s,246.754000,s,121.154100 ,fruit,wear,left ,0.258512,0.503960,left ,0.483815,0.822639,1.000000
999.000000,test,4.000000,33.000000, 2.000000,2.000000,2.000000 ,3.000000,2.000000,1.000000 ,2.000000,2.000000,2.000000 ,s,577.951600 ,0.511048,0.000000,0.806230,1.000000 ,k,329.404900,s,217.337900 ,wear,fruit,left ,0.235411,0.511048,right ,0.497565,0.806230,1.000000
999.000000,test,4.000000,34.000000, 1.000000,1.000000,1.000000 ,4.000000,1.000000,2.000000 ,1.000000,1.000000,1.000000 ,s,932.078200 ,0.227279,0.000000,0.507020,1.000000 ,k,239.160800,k,97.608700 ,fruit,wear,right ,0.227279,0.496444,right ,0.507020,0.826177,1.000000
999.000000,test,4.000000,35.000000, 2.000000,2.000000,2.000000 ,4.000000,1.000000,2.000000 ,4.000000,1.000000,2.000000 ,k,599.550400 ,0.186801,0.000000,0.830151,1.000000 ,k,160.191000,k,250.621600 ,fruit,wear,right ,0.186801,0.480975,right ,0.487679,0.830151,1.000000
999.000000,test,4.000000,36.000000, 4.000000,1.000000,2.000000 ,2.000000,2.000000,2.000000 ,4.000000,1.000000,2.000000 ,s,883.433000 ,0.194666,0.000000,0.831712,1.000000 ,s,348.871200,k,161.862600 ,fruit,wear,left ,0.194666,0.482942,right ,0.499715,0.831712,1.000000
999.000000,test,4.000000,37.000000, 4.000000,1.000000,2.000000 ,1.000000,1.000000,1.000000 ,4.000000,1.000000,2.000000 ,s,1083.148500 ,nan,nan,0.837647,1.000000 ,s,295.058800,nan,nan ,fruit,wear,left ,0.204466,0.515480,left ,0.517416,0.837647,1.000000
999.000000,test,4.000000,38.000000, 3.000000,2.000000,1.000000 ,1.000000,1.000000,1.000000 ,1.000000,1.000000,1.000000 ,k,575.051400 ,0.191255,0.000000,0.537322,1.000000 ,k,304.874400,k,318.131400 ,wear,fruit,right ,0.191255,0.505839,right ,0.537322,0.821903,1.000000
999.000000,test,4.000000,39.000000, 1.000000,1.000000,1.000000 ,3.000000,2.000000,1.000000 ,3.000000,2.000000,1.000000 ,k,733.099200 ,0.524117,1.000000,0.554617,1.000000 ,s,303.240000,k,428.956700 ,wear,fruit,right ,0.184984,0.524117,left ,0.554617,0.832021,1.000000
999.000000,test,4.000000,40.000000, 3.000000,2.000000,1.000000 ,1.000000,1.000000,1.000000 ,1.000000,1.000000,1.000000 ,k,656.461200 ,0.179248,0.000000,0.604231,0.000000 ,s,248.383400,s,182.999000 ,wear,fruit,left ,0.179248,0.562906,left ,0.604231,0.822205,1.000000
999.000000,test,5.000000,1.000000, 1.000000,1.000000,1.000000 ,4.000000,1.000000,2.000000 ,1.000000,1.000000,1.000000 ,s,3075.836600 ,0.186422,1.000000,0.623049,1.000000 ,s,264.110900,s,295.495400 ,wear,fruit,left ,0.186422,0.558319,left ,0.623049,0.832345,1.000000
999.000000,test,5.000000,2.000000, 2.000000,2.000000,2.000000 ,4.000000,1.000000,2.000000 ,4.000000,1.000000,2.000000 ,k,577.415300 ,0.162517,0.000000,0.850000,1.000000 ,k,279.976800,k,378.658100 ,fruit,wear,right ,0.162517,0.551844,right ,0.640672,0.850000,1.000000
999.000000,test,5.000000,3.000000, 4.000000,1.000000,2.000000 ,2.000000,2.000000,2.000000 ,2.000000,2.000000,2.000000 ,k,729.518700 ,0.556464,0.000000,0.838827,1.000000 ,s,464.373300,s,306.629800 ,wear,fruit,left ,0.150000,0.556464,left ,0.594288,0.838827,1.000000
999.000000,test,5.000000,4.000000, 1.000000,1.000000,1.000000 ,3.000000,2.000000,1.000000 ,3.000000,2.000000,1.000000 ,k,533.956000 ,0.533894,0.000000,0.628123,0.000000 ,k,264.562800,k,1294.486000 ,wear,fruit,right ,0.151298,0.533894,right ,0.628123,0.798850,1.000000
999.000000,test,5.000000,5.000000, 1.000000,1.000000,1.000000 ,3.000000,2.000000,1.000000 ,1.000000,1.000000,1.000000 ,s,802.305200 ,0.150000,0.000000,0.654578,1.000000 ,k,315.879700,s,443.643900 ,wear,fruit,left ,0.150000,0.510912,right ,0.654578,0.808134,1.000000
999.000000,test,5.000000,6.000000, 4.000000,1.000000,2.000000 ,2.000000,2.000000,2.000000 ,2.000000,2.000000,2.000000 ,k,714.172800 ,0.535293,1.000000,0.799463,1.000000 ,s,331.546000,s,470.824500 ,wear,fruit,left ,0.152060,0.535293,left ,0.669269,0.799463,1.000000
999.000000,test,5.000000,7.000000, 1.000000,1.000000,1.000000 ,4.000000,1.000000,2.000000 ,1.000000,1.000000,1.000000 ,s,902.718100 ,0.156781,0.000000,0.654360,0.000000 ,k,231.198400,k,224.044200 ,fruit,wear,right ,0.156781,0.548327,right ,0.654360,0.821657,1.000000
999.000000,test,5.000000,8.000000, 3.000000,2.000000,1.000000 ,2.000000,2.000000,2.000000 ,2.000000,2.000000,2.000000 ,k,1250.379700 ,0.559476,0.000000,0.812446,1.000000 ,k,343.345700,k,258.022800 ,wear,fruit,right ,0.185766,0.559476,right ,0.644097,0.812446,1.000000
999.000000,test,5.000000,9.000000, 1.000000,1.000000,1.000000 ,3.000000,2.000000,1.000000 ,1.000000,1.000000,1.000000 ,s,988.234300 ,0.175610,0.000000,0.636133,0.000000 ,k,358.195500,k,491.741500 ,wear,fruit,right ,0.175610,0.538906,right ,0.636133,0.781436,1.000000
999.000000,test,5.000000,10.000000, 3.000000,2.000000,1.000000 ,2.000000,2.000000,2.000000 ,2.000000,2.000000,2.000000 ,k,585.875700 ,0.535625,1.000000,0.785947,1.000000 ,k,281.190300,k,355.449200 ,wear,fruit,right ,0.162273,0.535625,right ,0.656996,0.785947,1.000000
999.000000,test,5.000000,11.000000, 2.000000,2.000000,2.000000 ,4.000000,1.000000,2.000000 ,2.000000,2.000000,2.000000 ,s,751.229700 ,0.525368,0.000000,0.792031,1.000000 ,s,288.790500,s,289.530500 ,wear,fruit,left ,0.212406,0.525368,left ,0.635258,0.792031,1.000000
999.000000,test,5.000000,12.000000, 2.000000,2.000000,2.000000 ,4.000000,1.000000,2.000000 ,4.000000,1.000000,2.000000 ,k,1674.421800 ,0.228067,0.000000,0.797548,1.000000 ,s,338.650600,s,276.136700 ,fruit,wear,left ,0.228067,0.522676,left ,0.642184,0.797548,1.000000
999.000000,test,5.000000,13.000000, 3.000000,2.000000,1.000000 ,2.000000,2.000000,2.000000 ,2.000000,2.000000,2.000000 ,k,514.210500 ,0.516331,1.000000,0.808727,1.000000 ,k,295.833900,s,410.112600 ,fruit,wear,right ,0.198091,0.516331,left ,0.679739,0.808727,1.000000
999.000000,test,5.000000,14.000000, 1.000000,1.000000,1.000000 ,3.000000,2.000000,1.000000 ,3.000000,2.000000,1.000000 ,k,839.291200 ,0.487035,1.000000,0.676951,0.000000 ,k,250.332800,s,333.508600 ,wear,fruit,left ,0.214712,0.487035,right ,0.676951,0.820891,1.000000
999.000000,test,5.000000,15.000000, 4.000000,1.000000,2.000000 ,1.000000,1.000000,1.000000 ,1.000000,1.000000,1.000000 ,k,950.189700 ,0.212706,0.000000,0.691129,0.000000 ,s,224.478200,s,864.962500 ,fruit,wear,left ,0.212706,0.447574,left ,0.691129,0.808615,1.000000
999.000000,test,5.000000,16.000000, 3.000000,2.000000,1.000000 ,1.000000,1.000000,1.000000 ,1.000000,1.000000,1.000000 ,k,619.615200 ,0.262859,1.000000,0.673733,1.000000 ,k,240.636700,k,367.798100 ,fruit,wear,right ,0.262859,0.442560,right ,0.673733,0.806783,1.000000
999.000000,test,5.000000,17.000000, 2.000000,2.000000,2.000000 ,4.000000,1.000000,2.000000 ,4.000000,1.000000,2.000000 ,k,640.123700 ,0.281569,0.000000,0.800573,1.000000 ,s,340.131600,k,715.899200 ,wear,fruit,right ,0.281569,0.426330,left ,0.650801,0.800573,1.000000
999.000000,test,5.000000,18.000000, 4.000000,1.000000,2.000000 ,1.000000,1.000000,1.000000 ,4.000000,1.000000,2.000000 ,s,938.714600 ,0.261400,0.000000,0.832611,1.000000 ,k,412.544900,s,271.808000 ,wear,fruit,left ,0.261400,0.461930,right ,0.619583,0.832611,1.000000
999.000000,test,5.000000,19.000000, 1.000000,1.000000,1.000000 ,3.000000,2.000000,1.000000 ,3.000000,2.000000,1.000000 ,k,563.995600 ,0.457450,0.000000,0.594957,0.000000 ,k,296.770100,k,239.933100 ,wear,fruit,right ,0.246188,0.457450,right ,0.594957,0.808929,1.000000
999.000000,test,5.000000,20.000000, 4.000000,1.000000,2.000000 ,2.000000,2.000000,2.000000 ,4.000000,1.000000,2.000000 ,s,632.806000 ,0.238842,0.000000,0.820066,1.000000 ,s,409.742300,k,269.571100 ,fruit,wear,left ,0.238842,0.415839,right ,0.598279,0.820066,1.000000
999.000000,test,5.000000,21.000000, 1.000000,1.000000,1.000000 ,4.000000,1.000000,2.000000 ,4.000000,1.000000,2.000000 ,k,858.616700 ,0.231503,0.000000,0.815000,1.000000 ,s,337.668000,s,158.846400 ,fruit,wear,left ,0.231503,0.426437,left ,0.580181,0.815000,1.000000
999.000000,test,5.000000,22.000000, 2.000000,2.000000,2.000000 ,4.000000,1.000000,2.000000 ,4.000000,1.000000,2.000000 ,k,634.469900 ,0.233506,0.000000,0.810206,1.000000 ,k,261.286700,s,411.175800 ,fruit,wear,right ,0.233506,0.421032,left ,0.590762,0.810206,1.000000
999.000000,test,5.000000,23.000000, 4.000000,1.000000,2.000000 ,1.000000,1.000000,1.000000 ,4.000000,1.000000,2.000000 ,s,578.947100 ,0.253199,1.000000,0.804659,1.000000 ,s,407.748700,k,244.843800 ,wear,fruit,right ,0.253199,0.417950,left ,0.597715,0.804659,1.000000
999.000000,test,5.000000,24.000000, 4.000000,1.000000,2.000000 ,2.000000,2.000000,2.000000 ,4.000000,1.000000,2.000000 ,s,1495.954200 ,0.249428,1.000000,0.767899,1.000000 ,k,400.951500,k,236.595600 ,fruit,wear,right ,0.249428,0.421994,right ,0.642056,0.767899,1.000000
999.000000,test,5.000000,25.000000, 2.000000,2.000000,2.000000 ,3.000000,2.000000,1.000000 ,2.000000,2.000000,2.000000 ,s,1657.796200 ,0.390095,1.000000,0.788438,1.000000 ,k,524.043200,s,271.090500 ,wear,fruit,left ,0.247174,0.390095,right ,0.620379,0.788438,1.000000
999.000000,test,5.000000,26.000000, 3.000000,2.000000,1.000000 ,1.000000,1.000000,1.000000 ,1.000000,1.000000,1.000000 ,k,1098.334700 ,0.235210,1.000000,0.661249,0.000000 ,k,431.901600,s,254.623400 ,wear,fruit,left ,0.235210,0.383952,right ,0.661249,0.731438,1.000000
999.000000,test,5.000000,27.000000, 4.000000,1.000000,2.000000 ,2.000000,2.000000,2.000000 ,4.000000,1.000000,2.000000 ,s,1126.572100 ,0.250904,0.000000,0.725005,1.000000 ,s,345.935200,s,245.016700 ,wear,fruit,left ,0.250904,0.403851,left ,0.617200,0.725005,1.000000
999.000000,test,5.000000,28.000000, 3.000000,2.000000,1.000000 ,1.000000,1.000000,1.000000 ,1.000000,1.000000,1.000000 ,k,675.404900 ,0.214011,0.000000,0.611460,1.000000 ,k,328.948500,s,296.796600 ,wear,fruit,left ,0.214011,0.392113,right ,0.611460,0.741151,1.000000
999.000000,test,5.000000,29.000000, 1.000000,1.000000,1.000000 ,4.000000,1.000000,2.000000 ,4.000000,1.000000,2.000000 ,k,589.665100 ,0.217833,0.000000,0.759473,0.000000 ,s,294.039400,s,248.601100 ,wear,fruit,left ,0.217833,0.409286,left ,0.596405,0.759473,1.000000
999.000000,test,5.000000,30.000000, 1.000000,1.000000,1.000000 ,4.000000,1.000000,2.000000 ,4.000000,1.000000,2.000000 ,k,468.442100 ,0.229633,0.000000,0.755383,0.000000 ,k,253.384800,k,215.704500 ,wear,fruit,right ,0.229633,0.409084,right ,0.603561,0.755383,1.000000
999.000000,test,5.000000,31.000000, 4.000000,1.000000,2.000000 ,2.000000,2.000000,2.000000 ,4.000000,1.000000,2.000000 ,s,670.110100 ,0.226080,0.000000,0.726443,1.000000 ,k,304.755100,s,193.414500 ,wear,fruit,left ,0.226080,0.397740,right ,0.572199,0.726443,1.000000
999.000000,test,5.000000,32.000000, 2.000000,2.000000,2.000000 ,4.000000,1.000000,2.000000 ,4.000000,1.000000,2.000000 ,k,470.480500 ,0.219735,0.000000,0.737830,1.000000 ,k,262.477200,k,522.541800 ,wear,fruit,right ,0.219735,0.403375,right ,0.589083,0.737830,1.000000
999.000000,test,5.000000,33.000000, 1.000000,1.000000,1.000000 ,4.000000,1.000000,2.000000 ,4.000000,1.000000,2.000000 ,k,364.918000 ,0.242830,1.000000,0.725810,0.000000 ,s,163.083700,s,162.512900 ,fruit,wear,left ,0.242830,0.400728,left ,0.574153,0.725810,1.000000
999.000000,test,5.000000,34.000000, 2.000000,2.000000,2.000000 ,3.000000,2.000000,1.000000 ,2.000000,2.000000,2.000000 ,s,1547.219800 ,0.432938,0.000000,0.720719,0.000000 ,s,304.940300,s,208.196500 ,fruit,wear,left ,0.257017,0.432938,left ,0.581414,0.720719,1.000000
999.000000,test,5.000000,35.000000, 4.000000,1.000000,2.000000 ,2.000000,2.000000,2.000000 ,4.000000,1.000000,2.000000 ,s,884.312100 ,0.267787,0.000000,0.714160,1.000000 ,s,304.308200,s,198.065300 ,wear,fruit,left ,0.267787,0.439100,left ,0.586569,0.714160,1.000000
999.000000,test,5.000000,36.000000, 3.000000,2.000000,1.000000 ,1.000000,1.000000,1.000000 ,1.000000,1.000000,1.000000 ,k,2543.442400 ,0.252465,1.000000,0.611035,1.000000 ,k,526.617400,s,307.828400 ,wear,fruit,left ,0.252465,0.428910,right ,0.611035,0.680163,1.000000
999.000000,test,5.000000,37.000000, 1.000000,1.000000,1.000000 ,4.000000,1.000000,2.000000 ,1.000000,1.000000,1.000000 ,s,710.437900 ,0.242749,1.000000,0.645039,0.000000 ,s,265.984400,s,487.457900 ,wear,fruit,left ,0.242749,0.423976,left ,0.645039,0.658945,1.000000
999.000000,test,5.000000,38.000000, 1.000000,1.000000,1.000000 ,3.000000,2.000000,1.000000 ,1.000000,1.000000,1.000000 ,s,908.032900 ,nan,nan,nan,nan ,nan,nan,nan,nan ,nan,nan,nan ,0.281776,0.409957,nan ,0.673976,0.655754,1.000000
999.000000,test,5.000000,39.000000, 3.000000,2.000000,1.000000 ,1.000000,1.000000,1.000000 ,1.000000,1.000000,1.000000 ,k,537.566900 ,0.295630,0.000000,0.639733,1.000000 ,k,319.501500,k,216.759900 ,wear,fruit,right ,0.295630,0.436188,right ,0.639733,0.670172,1.000000
999.000000,test,5.000000,40.000000, 1.000000,1.000000,1.000000 ,4.000000,1.000000,2.000000 ,1.000000,1.000000,1.000000 ,s,875.424800 ,0.277525,0.000000,0.605396,0.000000 ,k,631.834600,s,1030.235800 ,fruit,wear,right ,0.277525,0.435707,left ,0.605396,0.650473,1.000000
